Wavelength(nm)	Ua(SO2>98)(1/mm) Ua(SO2=0)(1/mm) Us(SO2>98)(1/mm) g(SO2>98)
400 93.07 82.54 40.12 0.7734
402 97.40 85.59 41.27 0.7866
404 101.82 89.21 40.25 0.7769
406 106.16 92.73 39.49 0.7726
408 110.73 96.09 38.90 0.7657
410 113.81 99.87 38.60 0.7604
412 116.09 104.21 38.95 0.7575
414 117.97 108.92 39.87 0.7585
416 118.04 114.03 41.09 0.7606
418 117.22 119.62 42.38 0.7657
420 115.39 125.10 43.91 0.7742
422 111.45 131.52 46.42 0.7896
424 106.30 139.37 49.90 0.8020
426 100.61 145.40 52.74 0.8141
428 94.94 151.01 55.61 0.8290
430 89.18 155.62 57.55 0.8390
432 82.69 159.31 60.51 0.8568
434 74.61 158.30 62.65 0.8710
436 66.95 156.93 64.74 0.8820
438 58.47 133.73 66.40 0.8928
440 51.07 118.33 68.83 0.9026
442 46.60 107.88 70.39 0.9220
444 42.24 88.84 72.82 0.9302 
446 38.21 74.30 73.79 0.9343
448 34.26 54.74 75.07 0.9392
450 31.48 33.81 77.20 0.9447
452 29.42 25.94 78.01 0.9488
454 27.66 19.82 78.82 0.9520
456 26.00 17.04 79.42 0.9544
458 24.47 13.61 80.17 0.9567
460 22.82 11.45 80.31 0.9587
462 21.33 10.37 80.37 0.9611
464 20.10 9.64 80.85 0.9634
466 18.97 9.12 81.74 0.9651
468 17.93 8.65 82.77 0.9665 
470 17.05 8.29 82.61 0.9677
472 16.30 7.99 83.21 0.9684
474 15.71 7.79 83.50 0.9690
476 15.16 7.60 83.81 0.9695
478 14.63 7.44 84.99 0.9700
480 14.15 7.31 86.13 0.9705
482 13.67 7.43 86.48 0.9714
484 13.30 7.56 86.75 0.9723
486 12.92 7.69 86.80 0.9731
488 12.54 7.86 86.81 0.9738
490 12.23 8.10 87.02 0.9743
492 11.94 8.35 87.52 0.9748
494 11.65 8.60 88.31 0.9752
496 11.37 8.87 88.75 0.9756
498 11.19 9.17 88.87 0.9759
500 11.05 9.50 88.63 0.9761
502 10.90 9.88 88.23 0.9762
504 10.74 10.25 87.75 0.9762
506 10.59 10.64 86.35 0.9762
508 10.52 10.99 85.75 0.9762
510 10.55 11.41 85.43 0.9763
512 10.74 11.91 85.03 0.9764
514 11.09 12.42 84.54 0.9765
516 11.59 12.92 83.74 0.9765
518 12.34 13.43 82.61 0.9763
520 13.26 13.98 81.42 0.9760
522 14.36 14.50 79.88 0.9756
524 15.62 15.22 78.06 0.9751
526 17.17 16.04 76.69 0.9744
528 19.20 16.96 75.28 0.9728
530 20.91 17.82 73.83 0.9707
532 22.48 18.66 72.78 0.9687
534 23.91 19.51 71.83 0.9668
536 25.17 20.37 71.10 0.9650
538 26.22 21.25 70.59 0.9637
540 27.13 22.13 70.14 0.9627
542 27.31 23.19 69.93 0.9625
544 26.79 24.01 69.89 0.9625
546 26.06 24.77 70.34 0.9627
548 25.15 25.45 70.86 0.9633
550 23.86 25.99 71.49 0.9642 
552 22.54 26.38 72.27 0.9652
554 21.34 26.70 73.12 0.9664
556 20.29 26.80 73.70 0.9677
558 19.55 26.71 74.10 0.9690
560 19.12 26.56 74.13 0.9694
562 19.47 26.00 73.63 0.9696
564 20.14 25.38 72.90 0.9693
566 21.04 24.74 72.04 0.9687
568 22.56 24.06 70.98 0.9681
570 24.38 23.29 70.02 0.9677
572 25.62 22.38 69.20 0.9674
574 26.70 21.43 68.82 0.9670
576 27.20 20.49 68.84 0.9666
578 26.87 19.64 69.09 0.9663
580 25.75 18.87 70.07 0.9662
582 23.29 18.08 72.11 0.9669
584 20.06 17.27 74.68 0.9680
586 16.51 16.33 77.42 0.9692
588 12.68 15.30 79.88 0.9708
590 9.72 14.21 81.67 0.9724
592 7.32 13.12 83.13 0.9743
594 5.66 11.92 84.67 0.9759
596 4.48 10.60 85.58 0.9774
598 3.60 9.29 86.21 0.9784
600 2.62 7.53 86.88 0.9794
605 1.51 5.55 87.89 0.9809
610 0.88 4.07 88.09 0.9815
615 0.63 3.27 88.09 0.9820
620 0.46 2.82 88.28 0.9823
625 0.35 2.48 88.50 0.9824
630 0.28 2.27 88.55 0.9826
635 0.24 2.10 88.63 0.9827
640 0.20 1.98 88.84 0.9827
645 0.17 1.89 88.55 0.9826
650 0.16 1.80 88.01 0.9825
655 0.16 1.71 87.72 0.9825
660 0.15 1.64 87.61 0.9826
665 0.14 1.58 87.51 0.9828
670 0.14 1.51 87.25 0.9832
675 0.14 1.43 86.82 0.9830 
680 0.14 1.35 86.61 0.9831
685 0.14 1.26 86.57 0.9834
690 0.13 1.17 86.35 0.9835
695 0.13 1.10 86.18 0.9835
700 0.14 1.00 85.70 0.9836
705 0.14 0.93 83.70 0.9837
710 0.17 0.87 83.33 0.9841
715 0.17 0.80 82.99 0.9840
720 0.18 0.75 82.57 0.9839
725 0.19 0.72 82.18 0.9839
730 0.20 0.70 81.64 0.9839
735 0.21 0.70 81.09 0.9839
740 0.22 0.72 80.66 0.9839
745 0.23 0.76 80.40 0.9838
750 0.24 0.81 80.22 0.9837
755 0.26 0.85 79.85 0.9836
760 0.27 0.84 79.41 0.9835
765 0.29 0.80 78.93 0.9835
770 0.30 0.73 78.42 0.9833
775 0.31 0.66 78.00 0.9832
780 0.33 0.59 77.61 0.9832
785 0.34 0.54 77.19 0.9832
790 0.36 0.51 76.82 0.9832
795 0.37 0.48 76.77 0.9831
800 0.38 0.47 76.73 0.9833
805 0.39 0.46 76.47 0.9832
810 0.40 0.45 76.10 0.9833
815 0.42 0.44 75.70 0.9833
820 0.43 0.44 75.48 0.9834
825 0.45 0.43 75.27 0.9835
830 0.46 0.43 75.06 0.9835
835 0.47 0.43 74.83 0.9834
840 0.48 0.43 74.65 0.9834
845 0.48 0.43 74.51 0.9833
850 0.49 0.42 74.20 0.9832
855 0.51 0.43 73.58 0.9831
860 0.51 0.43 72.87 0.9831
865 0.52 0.43 72.43 0.9831
870 0.53 0.43 72.29 0.9830
875 0.55 0.43 72.12 0.9829
880 0.56 0.44 71.63 0.9828
885 0.56 0.45 70.79 0.9828
890 0.56 0.45 70.07 0.9826
895 0.56 0.46 69.41 0.9824
900 0.56 0.46 68.86 0.9824
905 0.57 0.47 68.35 0.9823
910 0.57 0.47 68.07 0.9820
915 0.57 0.47 67.82 0.9820
920 0.57 0.47 67.54 0.9819
925 0.65 0.46 67.24 0.9818
930 0.65 0.45 66.86 0.9815
935 0.65 0.44 66.42 0.9812
940 0.65 0.43 66.08 0.9811
945 0.65 0.41 65.67 0.9810
950 0.65 0.39 65.21 0.9808
955 0.65 0.38 64.78 0.9805
960 0.66 0.36 64.38 0.9801
965 0.68 0.34 63.95 0.9800
970 0.69 0.32 63.58 0.9799
975 0.69 0.31 63.20 0.9798
980 0.68 0.29 62.68 0.9798
985 0.67 0.26 62.27 0.9798
990 0.66 0.25 62.09 0.9798
995 0.65 0.23 62.00 0.9800
1000 0.64 0.22 61.83 0.9801
1005 0.66 0.31 61.69 0.9801
1010 0.65 0.28 61.62 0.9801
1015 0.63 0.28 61.57 0.9800
1020 0.61 0.28 61.46 0.9800
1025 0.60 0.27 61.18 0.9800
1030 0.58 0.24 60.85 0.9800
1035 0.56 0.24 60.49 0.9800
1040 0.53 0.23 60.35 0.9800
1045 0.50 0.22 60.31 0.9800
1050 0.49 0.22 60.15 0.9800
1055 0.48 0.22 59.87 0.9800
1060 0.46 0.21 59.53 0.9799
1065 0.45 0.20 59.26 0.9799
1070 0.42 0.19 59.04 0.9799
1075 0.40 0.19 58.73 0.9800
1080 0.37 0.18 58.34 0.9802
1085 0.35 0.17 58.08 0.9801
1090 0.34 0.17 57.98 0.9802 
1095 0.34 0.16 57.89 0.9804
1100 0.35 0.15 57.81 0.9797
1105 0.33 0.15 57.58 0.9834
1110 0.33 0.16 57.66 0.9832
1115 0.33 0.15 57.67 0.9832
1120 0.31 0.14 57.72 0.9832
1125 0.32 0.14 57.53 0.9829
1130 0.31 0.13 57.26 0.9828
1135 0.32 0.15 57.78 0.9832
1140 0.32 0.16 57.93 0.9835
1145 0.29 0.18 57.72 0.9834
1150 0.30 0.19 57.51 0.9832
1155 0.31 0.21 57.33 0.9830
1160 0.32 0.21 57.05 0.9829
1165 0.32 0.21 56.82 0.9828
1170 0.32 0.21 56.55 0.9827
1175 0.32 0.21 56.21 0.9827
1180 0.33 0.21 55.55 0.9827
1185 0.33 0.21 55.41 0.9827 
1190 0.34 0.21 55.48 0.9827
1195 0.35 0.20 55.37 0.9827
1200 0.36 0.20 55.20 0.9826
1205 0.37 0.20 55.16 0.9826
1210 0.20 0.20 50.16 0.9784
1215 0.20 0.20 49.98 0.9784
1220 0.20 0.19 49.81 0.9784
1225 0.19 0.19 49.43 0.9784
1230 0.18 0.17 49.21 0.9784
1235 0.18 0.17 49.25 0.9784
1240 0.18 0.17 49.19 0.9783
1245 0.18 0.17 47.97 0.9782
1250 0.17 0.17 47.51 0.9781
1255 0.17 0.17 48.18 0.9781
1260 0.17 0.17 48.64 0.9783
1265 0.17 0.15 47.36 0.9781
1270 0.15 0.14 46.50 0.9775
1275 0.16 0.15 47.09 0.9774
1280 0.18 0.16 47.91 0.9778
1285 0.17 0.16 47.13 0.9778
1290 0.16 0.16 46.21 0.9778
1295 0.18 0.18 45.77 0.9778
1300 0.19 0.20 45.36 0.9779
